# Quantenoptiklabor: Experiment Interferenz von einzelnen Photonen
# Messung vom 17.09.2008, 19:32 Uhr
# Datenaufnahme: jeder Messpunkt: 10* 1s
# Didaktik der Physik, Universität Erlangen
# Lab-User: P. Bronner


#Achsenbeschriftung:

#Weg[nm] Koinz Mittelwert [Hz] Standardabweichung[Hz]

0	101,0	9,02
7	95,2	8,48
15	115,7	21,27
23	148,0	13,03
31	243,1	29,28
38	309,0	45,80
46	430,2	67,78
55	603,8	135,79
63	689,9	81,20
70	818,0	80,16
78	1033,8	37,64
86	1173,2	35,84
93	1405,6	81,74
101	1650,5	81,60
109	1812,6	112,20
117	2062,5	87,01
125	2268,4	72,52
132	2411,2	76,90
140	2652,8	41,23
148	2939,7	87,39
156	3053,5	128,16
164	3116,8	86,08
171	3262,0	54,02
179	3406,3	64,89
188	3538,5	85,18
195	3565,9	49,35
202	3599,7	54,12
210	3622,7	59,61
218	3636,3	70,50
224	3621,6	56,49
231	3602,6	42,52
240	3518,5	48,92
248	3403,1	84,82
255	3380,0	76,36
263	3183,9	53,45
271	3008,9	52,51
280	2835,4	99,39
287	2718,7	39,37
295	2622,8	65,79
302	2289,5	48,52
309	2074,1	83,46
317	1992,5	98,67
325	1826,3	134,92
334	1492,8	96,46
340	1314,4	50,43
348	1146,5	132,67
355	954,1	63,06
364	745,7	41,70
371	651,1	77,93
379	444,7	60,31
386	399,1	39,71
394	283,7	38,19
402	193,8	35,32
410	116,2	23,57
418	92,3	14,13
425	74,4	7,07
434	86,0	5,58
441	93,4	13,43
449	214,0	33,48
456	348,1	76,46
465	469,5	66,34
472	548,0	64,28
480	693,6	103,70
486	842,4	71,81
495	995,7	76,87
502	1246,3	41,53
510	1241,1	64,36
517	1479,6	116,79
525	1678,9	67,93
534	1903,7	114,02
540	2173,7	80,95
549	2449,7	131,36
556	2622,6	56,85
564	2694,0	113,12
570	2922,0	69,41
579	3070,3	71,84
587	3283,8	77,24
595	3324,9	62,99
602	3529,0	58,83
609	3602,4	64,36
616	3560,4	64,06
625	3627,0	67,33
633	3599,5	44,59
641	3634,8	64,47
648	3608,5	79,09
655	3573,2	45,14
663	3441,5	47,99
669	3287,5	52,63
678	3157,3	140,09
685	3046,4	70,20
693	2902,0	96,47
701	2788,5	75,55
709	2513,8	63,80
716	2329,4	94,46
725	2157,0	109,68
732	1953,2	37,71
740	1750,7	88,17
746	1562,1	94,87
755	1368,3	74,31
762	1209,0	89,37
770	1083,2	60,86
777	839,7	76,74
785	634,0	102,85
793	463,3	66,57
799	348,1	56,51
807	257,5	55,82
815	173,6	38,88
822	136,7	50,00
832	59,3	10,94
838	63,2	7,93
845	59,5	11,35
854	95,7	21,22
860	144,3	30,79
869	218,0	22,04
876	321,8	32,14
883	501,0	72,59
890	599,0	41,24
899	688,0	82,00
906	874,5	89,62
914	1080,0	50,87
921	1311,9	110,74
929	1507,0	153,70
936	1646,6	112,20
944	1846,1	108,99
951	2080,6	93,64
959	2330,2	75,04
967	2497,8	106,33
974	2774,3	110,56
981	2834,5	67,44
990	3018,3	56,46
997	3201,1	73,57
1004	3374,2	109,59
1011	3425,8	74,28
1020	3449,1	44,58
1026	3560,3	66,41
1034	3660,4	42,16
1041	3638,7	74,97
1050	3656,6	42,34
1058	3668,9	57,64
1064	3625,6	58,60
1073	3572,8	80,23
1081	3494,5	69,77
1087	3348,8	103,18
1094	3298,7	108,07
1101	3142,7	62,68
1109	3008,6	71,41
1118	2855,7	59,07
1124	2604,7	69,14
1131	2479,8	97,50
1140	2289,6	96,25
1148	2099,9	83,25
1155	1823,8	101,83
1162	1631,7	91,71
1170	1477,5	113,94
1176	1215,9	64,06
1185	1129,9	52,88
1193	904,4	66,72
1200	693,7	88,08
1208	561,8	60,13
1214	461,8	51,76
1223	350,5	36,02
1230	186,3	20,11
1237	112,0	31,52
1245	116,2	20,81
1253	51,0	10,92
1260	39,7	7,30
1268	63,6	15,40
1274	92,9	14,78
1283	167,5	56,96
1291	224,3	43,29
1296	332,6	40,95
1305	462,2	50,13
1313	616,7	75,76
1319	776,5	79,79
1326	930,9	65,68
1334	1161,3	94,19
1341	1343,5	88,44
1349	1508,1	91,78
1357	1750,1	131,46
1363	1987,0	74,41
1372	2245,0	57,06
1379	2299,4	108,87
1387	2613,6	120,26
1394	2759,6	96,89
1401	2952,8	104,31
1408	3101,5	98,17
1416	3184,2	71,97
1423	3306,8	74,84
1432	3399,2	68,06
1439	3521,4	117,66
1447	3570,9	60,08
1454	3657,5	114,00
1460	3631,6	50,96
1467	3687,0	66,44
1475	3640,7	37,47
1483	3593,3	46,26
1490	3537,2	67,48
1498	3418,4	58,18
1505	3350,7	99,06
1513	3207,1	45,65
1520	3121,1	115,06
1526	2998,1	63,09
1534	2893,2	78,19
1543	2675,3	130,11
1548	2441,3	81,94
1557	2238,2	73,84
1565	2008,0	117,36
1573	1758,2	107,82
1579	1547,4	65,22
1586	1406,8	88,20
1593	1198,9	58,82
1601	1022,1	75,16
1609	895,3	52,33
1616	684,4	58,46
1623	609,0	91,25
1630	524,5	66,69
1639	326,9	56,43
1646	192,0	42,32
1652	137,6	24,98
1660	62,7	12,26
1668	36,3	11,94
1674	33,4	6,96
1681	33,1	8,23
1689	75,1	14,56
1696	144,9	32,81
1704	188,5	49,82
1712	336,2	65,52
1719	414,1	108,97
1727	527,8	65,43
1734	735,4	90,67
1742	897,4	108,36
1748	1122,1	75,15
1756	1217,2	65,94
1763	1478,6	81,75
1771	1629,5	106,65
1777	1947,7	81,32
1785	1971,2	95,85
1793	2273,6	65,94
1799	2479,2	109,28
1806	2617,1	125,29
1814	2838,7	94,13
1821	2970,8	61,54
1829	3131,8	132,18
1836	3235,3	111,06
1843	3360,7	63,85
1851	3489,0	58,39
1859	3545,2	64,81
1866	3607,1	58,28
1873	3670,2	70,14
1881	3686,2	68,95
1889	3699,1	38,66
1894	3652,6	54,84
1903	3591,1	55,47
1910	3502,9	80,40
1917	3460,6	50,41
1924	3320,5	71,79
1932	3219,0	60,00
1939	3069,1	53,49
1946	2889,8	82,53
1954	2664,8	57,23
1961	2468,0	151,54
1967	2383,9	111,30
1975	2131,1	78,75
1983	1806,5	102,52
1990	1800,0	57,76
1997	1619,6	72,13
2005	1583,3	106,32
2011	1271,1	140,90
2018	978,5	48,98
2025	831,2	120,09
2032	612,6	67,18
2040	577,4	53,11
2047	329,7	48,30
2054	249,4	42,14
2062	174,8	29,90
2070	132,9	24,16
2076	62,3	15,27
2084	26,5	7,95
2091	19,0	6,07
2098	47,3	8,97
2106	87,8	35,98
2113	170,9	49,72
2119	177,9	33,71
2128	275,2	36,40
2135	385,3	71,17
2141	466,7	93,59
2149	660,7	111,12
2156	803,1	57,00
2162	1013,2	84,56
2170	1142,6	86,82
2177	1364,0	96,23
2185	1534,6	118,77
2192	1813,5	80,21
2199	2007,2	114,00
2206	2128,2	123,72
2214	2384,3	55,63
2220	2525,3	61,31
2227	2813,6	155,45
2235	2852,1	153,67
2242	2945,3	108,92
2250	3164,1	85,31
2257	3374,8	90,92
2263	3420,7	82,93
2271	3504,9	76,87
2278	3566,0	49,26
2286	3667,1	59,12
2292	3658,1	66,79
2299	3691,2	57,73
2307	3689,3	51,74
2314	3647,9	103,31
2321	3586,2	61,46
2329	3548,6	46,88
2336	3344,4	69,62
2342	3274,2	73,52
2350	3094,6	123,10
2357	2949,2	71,29
2364	2838,3	73,19
2372	2646,7	125,03
2379	2568,4	100,23
2385	2283,9	78,11
2392	2152,7	79,63
2400	2041,0	100,19
2408	1770,9	95,47
2415	1502,7	121,07
2421	1325,0	58,10
2428	1227,5	74,62
2435	1055,9	56,04
2443	761,9	66,22
2450	647,6	75,67
2458	544,1	47,22
2464	431,3	61,67
2472	248,4	50,93
2478	189,6	39,17
2486	139,0	17,65
2491	69,2	15,04
2499	27,5	9,50
2507	13,5	4,33
2514	16,1	5,11
2521	52,4	30,32
2529	98,8	18,44
2536	159,7	37,96
2542	289,0	60,21
2549	413,1	43,47
2555	417,7	47,31
2564	636,2	31,26
2570	765,9	76,08
2577	890,8	86,28
2585	1080,5	37,67
2592	1166,2	70,07
2599	1487,5	101,07
2605	1690,4	85,43
2613	1756,6	68,09
2620	2003,3	105,14
2626	2089,1	83,99
2633	2248,3	106,90
2642	2543,9	109,15
2648	2596,6	115,29
2655	2871,1	144,40
2662	3002,0	81,34
2669	3156,2	106,68
2676	3315,5	66,00
2684	3410,4	43,09
2690	3473,1	77,37
2697	3551,2	76,78
2704	3594,2	23,08
2711	3725,1	61,94
2718	3664,3	61,84
2726	3644,4	75,06
2732	3642,5	82,24
2740	3643,5	95,07
2748	3591,1	83,65
2754	3526,8	87,16
2762	3382,4	69,18
2768	3361,5	79,64
2776	3137,3	81,38
2782	3002,8	54,99
2789	2831,7	51,86
2796	2665,3	81,81
2804	2536,4	59,61
2811	2299,3	65,89
2817	2089,1	110,71
2824	1980,1	109,22
2831	1845,4	84,18
2837	1467,5	156,44
2845	1347,2	85,94
2852	1216,9	66,60
2858	981,5	109,60
2866	780,5	90,66
2872	744,1	95,53
2880	514,8	55,22
2886	396,7	73,15
2894	282,1	54,23
2901	206,9	46,94
2907	128,2	31,76
2915	63,8	20,44
2922	35,4	11,14
2929	12,1	2,47
2936	27,9	16,57
2944	56,6	13,39
2950	126,7	38,18
2957	187,8	26,18
2963	303,6	37,16
2972	361,6	53,57
2978	485,2	90,67
2985	590,9	51,35
2991	791,4	105,59
2998	966,5	126,75
3006	1184,3	76,80
3012	1280,2	133,62
3019	1452,4	83,12
3025	1668,5	123,97
3032	1889,3	92,35
3041	2015,0	187,28
3048	2253,0	102,30
3055	2384,0	85,58
3061	2644,5	95,02
3069	2817,0	71,83
3076	2949,4	86,15
3083	3093,6	63,52
3090	3262,0	59,90
3096	3347,0	30,19
3103	3457,7	77,36
3110	3556,7	80,00
3116	3628,1	62,60
3124	3662,2	55,77
3129	3631,8	78,31
3137	3668,2	71,37
3144	3653,7	60,57
3152	3635,9	73,53
3159	3553,8	48,26
3165	3509,1	46,41
3172	3489,6	80,56
3181	3345,1	80,23
3185	3261,3	68,52
3192	3148,7	103,06
3200	2886,6	96,42
3206	2761,8	69,21
3214	2641,7	128,16
3221	2517,3	86,15
3227	2222,2	183,53
3234	2144,1	111,51
3239	1881,6	59,97
3247	1633,2	114,66
3255	1498,4	77,39
3262	1358,2	120,04
3269	1149,6	83,37
3276	970,4	56,27
3281	841,4	40,51
3287	658,6	84,96
3295	538,3	53,98
3302	394,1	32,30
3310	333,7	62,83
3315	232,6	40,36
3322	158,1	30,10
3329	79,3	26,26
3336	33,8	18,39
3343	16,2	6,94
3350	29,0	15,28
3357	38,1	14,82
3363	59,4	16,11
3371	128,9	40,39
3376	209,8	28,62
3384	318,1	51,22
3391	347,3	64,51
3398	576,3	95,28
3406	720,9	123,84
3412	774,8	42,19
3418	1087,2	100,94
3426	1221,3	130,18
3432	1321,5	99,30
3440	1306,6	75,01
3446	1741,6	115,17
3453	1863,6	92,64
3459	2036,7	96,95
3466	2197,8	98,39
3472	2420,2	85,03
3479	2622,3	116,06
3487	2713,5	93,33
3494	2846,8	87,00
3500	3062,5	92,91
3507	3224,6	58,46
3514	3334,3	113,95
3520	3315,7	90,39
3527	3494,3	92,56
3534	3534,2	91,55
3541	3586,9	67,52
3548	3637,7	53,15
3554	3610,6	43,06
3560	3646,1	70,46
3569	3658,4	50,75
3575	3621,3	57,71
3582	3543,1	70,03
3589	3485,3	57,79
3594	3354,5	66,97
3601	3321,1	74,89
3609	3160,5	52,63
3614	3067,8	120,13
3622	2807,0	57,40
3628	2763,6	59,19
3634	2660,3	80,22
3642	2345,8	91,60
3649	2184,1	173,21
3655	2015,6	88,87
3663	1879,4	51,15
3669	1585,0	75,48
3676	1420,5	103,02
3682	1281,7	118,68
3689	1016,8	66,23
3696	895,3	48,48
3702	754,0	86,98
3709	500,9	79,48
3716	367,4	45,14
3724	338,3	41,24
3728	270,5	42,17
3737	149,3	19,17
3743	105,5	31,00
3750	56,5	8,72
3756	34,6	10,93
3764	21,3	7,32
3771	27,1	8,20
3777	72,8	24,27
3783	136,9	21,82
3792	184,7	26,63
3797	287,5	44,56
3804	383,2	48,45
3811	458,2	49,21
3816	673,2	43,17
3825	671,4	50,24
3831	893,7	98,65
3837	1073,3	73,87
3844	1221,0	81,82
3852	1399,8	83,78
3857	1584,2	93,84
3863	1741,9	85,92
3871	1926,2	69,00
3878	2102,1	73,53
3883	2272,5	54,35
3891	2496,3	93,94
3898	2649,8	82,20
3904	2798,7	86,77
3910	2959,1	55,14
3917	3071,1	100,62
3925	3262,0	77,24
3931	3293,3	60,68
3937	3458,0	90,82
3945	3487,8	47,07
3951	3581,8	63,33
3957	3599,6	46,93
3964	3672,0	43,36
3971	3671,2	60,69
3977	3609,4	52,21
3984	3602,1	94,45
3990	3564,0	56,39
3997	3535,6	49,72
4004	3460,0	92,81
4010	3299,9	73,30
4017	3181,9	88,98
4024	3137,0	90,50
4030	2992,7	76,09
4037	2915,6	86,19
4043	2673,1	69,31
4050	2563,8	78,43
4056	2421,2	74,92
4064	2211,7	96,08
4071	2088,8	90,10
4078	1830,1	76,86
4083	1674,1	173,04
4089	1463,6	103,01
4096	1331,7	66,66
4103	1129,1	75,14
4109	998,6	76,56
4117	899,1	74,68
4123	665,4	59,89
4129	557,3	39,73
4136	395,1	50,34
4143	328,9	74,12
4149	243,3	62,99
4156	180,2	39,78
4162	100,5	23,95
4170	58,1	16,71
4175	32,8	9,53
4182	29,3	7,99
4188	38,6	9,55
4196	66,1	23,79
4202	127,6	26,63
4209	184,4	33,33
4215	221,8	30,42
4222	385,5	55,13
4228	538,7	54,51
4234	619,7	49,63
4242	727,1	34,69
4247	887,5	108,33
4254	982,3	39,69
4261	1229,4	80,48
4268	1269,9	107,68
4274	1560,2	57,15
4280	1642,0	136,46
4288	1861,4	91,04
4293	2086,0	89,83
4301	2318,3	68,28
4306	2342,6	87,80
4312	2543,7	144,12
4319	2694,7	77,79
4327	2927,4	51,33
4333	3043,6	91,08
4340	3123,1	95,14
4346	3307,8	64,82
4353	3360,7	50,89
4360	3424,5	82,43
4366	3541,1	46,44
4371	3538,8	65,68
4379	3580,0	53,34
4385	3679,3	72,86
4392	3660,3	57,75
4398	3616,3	62,30
4406	3570,7	92,79
4412	3507,2	81,60
4419	3490,5	39,51
4426	3384,4	87,67
4432	3329,9	97,75
4438	3232,9	91,50
4445	2940,1	106,03
4452	3012,1	88,16
4458	2794,7	85,61
4463	2629,3	50,94
4470	2560,7	70,60
4476	2271,8	111,72
4484	2116,3	99,03
4490	1891,3	91,04
4497	1835,9	118,80
4504	1570,5	85,21
4509	1424,3	69,11
4516	1465,5	73,09
4522	1112,0	136,57
4529	959,0	62,33
4535	831,1	73,37
4542	681,2	43,45
4548	604,7	33,87
4555	401,6	64,67
4561	352,5	82,17
4567	236,5	36,56
4575	178,7	44,06
4581	115,7	18,90
4587	70,8	21,46
4594	54,2	7,84
4601	42,3	7,56
4608	47,4	11,89
4613	92,3	22,89
4619	110,6	24,20
4626	241,0	62,20
4633	259,0	56,73
4639	352,6	36,41
4645	499,8	55,23
4652	575,8	36,35
4658	706,5	53,01
4665	884,1	83,21
4671	1028,2	79,99
4677	1230,0	63,98
4684	1333,9	60,13
4691	1571,7	71,95
4697	1638,5	85,68
4703	1770,8	65,15
4710	1950,9	67,85
4716	2107,5	100,47
4724	2363,8	114,90
4730	2559,2	109,64
4736	2693,4	121,32
4742	2784,3	58,07
4750	2965,0	126,47
4755	3020,2	49,73
4761	3191,7	85,84
4768	3281,9	57,53
4774	3390,7	56,22
4782	3517,6	66,39
4786	3582,8	66,52
4793	3535,8	47,77
4800	3604,9	41,18
4806	3657,3	42,42
4813	3614,4	59,92
4819	3560,7	56,94
4825	3539,3	73,93
4831	3530,9	48,72
4839	3389,9	73,16
4843	3421,5	50,58
4851	3340,7	99,40
4857	3160,7	82,26
4864	3066,9	74,36
4870	2930,5	77,51
4877	2771,4	60,33
4883	2596,5	144,96
4890	2460,1	74,28
4896	2312,2	84,22
4901	2222,4	75,13
4908	2109,4	57,57
4915	1818,2	52,65
4922	1653,6	73,25
4927	1523,1	117,66
4933	1366,2	55,71
4940	1187,4	48,34
4947	1055,7	50,06
4953	966,8	71,48
4957	705,6	72,20
4965	652,9	105,87
4971	561,2	37,42
4977	387,7	39,42
4984	341,8	55,01
4989	212,3	77,63
4998	152,0	35,37
